Folder: TP-identification/Test Data/Hole/Tensile Data

Note: README.md
# Identification - Master BMED

This repository contains the materials for the Identification course in the Master BMED program at Mines St Etienne.

## Installation

To set up the conda environment for this project, follow these steps:

1. **Install Miniconda/Anaconda**:
    If you don't have Miniconda or Anaconda installed, download and install it from [here](https://docs.conda.io/en/latest/miniconda.html).

2. **Clone the repository**:
    ```bash
    git clone https://gitlab.emse.fr/pierrat/tp-identification.git
    cd tp-identification
    ```

3. **Create the conda environment**:
    ```bash
    conda env create -f environment.yml
    ```

4. **Activate the environment**:
    ```bash
    conda activate tp-identification
    ```

5. **Install additional dependencies (if any)**:
    ```bash
    conda install <package-name>
    ```

## Usage

After setting up and activating the conda environment, you can open the `Identification.ipynb` notebook. For example, you can use Visual Studio Code or Jupyter Lab to open the notebook.

## Contributing

If you wish to contribute to this project, please fork the repository and create a pull request with your changes.

File: data.csv
Déplacement;Charge;Contrainte de traction;Temps;Nbre de cycles;ID de segment;Données marquées;Nombre de marques;Ténacité;Déplacement de traction;Déformation de traction;Position corrigée
(mm);(N);(MPa);(sec);;;;;(gf/tex);(mm);(mm/mm);(mm)
0,00000;0,43294;0,04329;0,00000;0;5;0;0;0,44148;0,00000;0,00000;0,00000
0,99891;2,59082;0,25908;0,60400;0;22412;0;0;2,64190;0,99891;0,00999;0,99891
2,33359;5,16560;0,51656;1,40400;0;22412;0;0;5,26744;2,33359;0,02334;2,33359
3,66656;7,29555;0,72955;2,20400;0;22412;0;0;7,43939;3,66656;0,03667;3,66656
5,00062;9,15740;0,91574;3,00400;0;22412;0;0;9,33795;5,00062;0,05001;5,00062
6,33328;10,80606;1,08061;3,80400;0;22412;0;0;11,01912;6,33328;0,06333;6,33328
7,66703;12,23865;1,22386;4,60400;0;22412;0;0;12,47995;7,66703;0,07667;7,66703
9,00047;13,48715;1,34871;5,40400;0;22412;0;0;13,75307;9,00047;0,09000;9,00047
10,33281;14,62486;1,46249;6,20400;0;22412;0;0;14,91320;10,33281;0,10333;10,33281
11,66656;15,65564;1,56556;7,00400;0;22412;0;0;15,96431;11,66656;0,11667;11,66656
13,00000;16,59845;1,65985;7,80400;0;22412;0;0;16,92571;13,00000;0,13000;13,00000
14,33359;17,46017;1,74602;8,60400;0;22412;0;0;17,80442;14,33359;0,14334;14,33359
15,66656;18,28149;1,82815;9,40400;0;22412;0;0;18,64193;15,66656;0,15667;15,66656
17,00015;19,00901;1,90090;10,20400;0;22412;0;0;19,38379;17,00015;0,17000;17,00015
18,33359;19,73452;1,97345;11,00400;0;22412;0;0;20,12361;18,33359;0,18334;18,33359
19,66671;20,40248;2,04025;11,80400;0;22412;0;0;20,80474;19,66671;0,19667;19,66671
21,00000;21,03521;2,10352;12,60400;0;22412;0;0;21,44995;21,00000;0,21000;21,00000
22,33422;21,69916;2,16992;13,40400;0;22412;0;0;22,12699;22,33422;0,22334;22,33422
23,66703;22,28878;2,22888;14,20400;0;22412;0;0;22,72823;23,66703;0,23667;23,66703
25,00015;22,89850;2,28985;15,00400;0;22412;0;0;23,34997;25,00015;0,25000;25,00015
26,33343;23,45798;2,34580;15,80400;0;22412;0;0;23,92048;26,33343;0,26333;26,33343
27,66687;23,99349;2,39935;16,60400;0;22412;0;0;24,46655;27,66687;0,27667;27,66687
29,00015;24,52398;2,45240;17,40400;0;22412;0;0;25,00751;29,00015;0,29000;29,00015
30,33312;25,05802;2,50580;18,20400;0;22412;0;0;25,55207;30,33312;0,30333;30,33312
31,66578;25,57089;2,55709;19,00400;0;22412;0;0;26,07505;31,66578;0,31666;31,66578
32,99999;26,03604;2,60360;19,80400;0;22412;0;0;26,54938;32,99999;0,33000;32,99999
34,33312;26,54869;2,65487;20,60400;0;22412;0;0;27,07213;34,33312;0,34333;34,33312
35,66656;27,01472;2,70147;21,40400;0;22412;0;0;27,54735;35,66655;0,35667;35,66656
37,00031;27,52416;2,75242;22,20400;0;22412;0;0;28,06683;37,00031;0,37000;37,00031
38,33327;27,99351;2,79935;23,00400;0;22412;0;0;28,54544;38,33327;0,38333;38,33327
39,66703;28,45861;2,84586;23,80400;0;22412;0;0;29,01971;39,66703;0,39667;39,66703
40,99952;28,97347;2,89735;24,60400;0;22412;0;0;29,54472;40,99952;0,41000;40,99952
42,33374;29,48150;2,94815;25,40400;0;22412;0;0;30,06277;42,33374;0,42334;42,33374
43,66718;29,94313;2,99431;26,20400;0;22412;0;0;30,53349;43,66718;0,43667;43,66718
45,00031;30,45886;3,04589;27,00400;0;22412;0;0;31,05939;45,00031;0,45000;45,00031
46,33421;30,95978;3,09598;27,80400;0;22412;0;0;31,57019;46,33421;0,46334;46,33421
47,66656;31,44727;3,14473;28,60400;0;22412;0;0;32,06729;47,66656;0,47667;47,66656
48,99953;31,98677;3,19868;29,40400;0;22412;0;0;32,61742;48,99953;0,49000;48,99953
50,33312;32,49443;3,24944;30,20400;0;22412;0;0;33,13510;50,33312;0,50333;50,33312
51,66671;33,06389;3,30639;31,00400;0;22412;0;0;33,71578;51,66671;0,51667;51,66671
52,99984;33,54137;3,35414;31,80400;0;22412;0;0;34,20268;52,99984;0,53000;52,99984
54,33343;34,13911;3,41391;32,60400;0;22412;0;0;34,81220;54,33343;0,54333;54,33343
55,66655;34,73909;3,47391;33,40400;0;22412;0;0;35,42401;55,66655;0,55667;55,66655
57,00062;35,34019;3,53402;34,20400;0;22412;0;0;36,03697;57,00062;0,57001;57,00062
58,33390;35,98878;3,59888;35,00400;0;22412;0;0;36,69834;58,33390;0,58334;58,33390
59,66671;36,65261;3,66526;35,80400;0;22412;0;0;37,37526;59,66671;0,59667;59,66671
60,99952;37,16831;3,71683;36,60400;0;22412;0;0;37,90113;60,99952;0,61000;60,99952
62,33234;37,89764;3,78976;37,40400;0;22412;0;0;38,64483;62,33234;0,62332;62,33234
63,66702;38,64798;3,86480;38,20400;0;22412;0;0;39,40997;63,66702;0,63667;63,66702
65,00015;39,44273;3,94427;39,00400;0;22412;0;0;40,22039;65,00014;0,65000;65,00015
66,33358;40,16200;4,01620;39,80400;0;22412;0;0;40,95384;66,33359;0,66334;66,33358
67,66655;41,01142;4,10114;40,60400;0;22412;0;0;41,82001;67,66655;0,67667;67,66655
68,99983;41,89101;4,18910;41,40400;0;22412;0;0;42,71694;68,99983;0,69000;68,99983
70,33420;42,81290;4,28129;42,20400;0;22412;0;0;43,65701;70,33421;0,70334;70,33420
71,66624;43,62729;4,36273;43,00400;0;22412;0;0;44,48745;71,66624;0,71666;71,66624
72,99998;44,64680;4,46468;43,80400;0;22412;0;0;45,52706;72,99998;0,73000;72,99998
74,33342;45,67591;4,56759;44,60400;0;22412;0;0;46,57647;74,33342;0,74333;74,33342
74,68249;44,74765;4,47477;45,20800;0;22476;0;0;45,62991;74,68249;0,74682;74,68249
73,33639;40,81406;4,08141;46,00800;0;22476;0;0;41,61876;73,33640;0,73336;73,33639
72,00358;38,10008;3,81001;46,80800;0;22476;0;0;38,85127;72,00358;0,72004;72,00358
70,66999;35,93461;3,59346;47,60800;0;22476;0;0;36,64311;70,66998;0,70670;70,66999
69,33670;34,10714;3,41071;48,40800;0;22476;0;0;34,77961;69,33671;0,69337;69,33670
68,00280;32,51801;3,25180;49,20800;0;22476;0;0;33,15915;68,00280;0,68003;68,00280
66,67014;31,12743;3,11274;50,00800;0;22476;0;0;31,74115;66,67014;0,66670;66,67014
65,33702;29,86023;2,98602;50,80800;0;22476;0;0;30,44896;65,33702;0,65337;65,33702
64,00311;28,70997;2,87100;51,60800;0;22476;0;0;29,27603;64,00311;0,64003;64,00311
62,67014;27,66264;2,76626;52,40800;0;22476;0;0;28,20804;62,67014;0,62670;62,67014
61,33702;26,68479;2,66848;53,20800;0;22476;0;0;27,21091;61,33702;0,61337;61,33702
60,00280;25,75700;2,57570;54,00800;0;22476;0;0;26,26483;60,00280;0,60003;60,00280
58,67062;24,92000;2,49200;54,80800;0;22476;0;0;25,41133;58,67062;0,58671;58,67062
57,33671;24,09738;2,40974;55,60800;0;22476;0;0;24,57249;57,33671;0,57337;57,33671
56,00312;23,36365;2,33636;56,40800;0;22476;0;0;23,82429;56,00312;0,56003;56,00312
54,66906;22,61271;2,26127;57,20800;0;22476;0;0;23,05855;54,66906;0,54669;54,66906
53,33749;21,89653;2,18965;58,00800;0;22476;0;0;22,32825;53,33749;0,53337;53,33749
52,00343;21,23662;2,12366;58,80800;0;22476;0;0;21,65532;52,00343;0,52003;52,00343
50,66968;20,56326;2,05633;59,60800;0;22476;0;0;20,96869;50,66968;0,50670;50,66968
49,33687;19,90960;1,99096;60,40800;0;22476;0;0;20,30214;49,33687;0,49337;49,33687
48,00327;19,29941;1,92994;61,20800;0;22476;0;0;19,67992;48,00328;0,48003;48,00327
46,67046;18,67347;1,86735;62,00800;0;22476;0;0;19,04164;46,67046;0,46670;46,67046
45,33593;18,07034;1,80703;62,80800;0;22476;0;0;18,42662;45,33593;0,45336;45,33593
44,00343;17,48550;1,74855;63,60800;0;22476;0;0;17,83025;44,00343;0,44003;44,00343
42,66984;16,92104;1,69210;64,40800;0;22476;0;0;17,25466;42,66984;0,42670;42,66984
41,33718;16,33703;1,63370;65,20800;0;22476;0;0;16,65913;41,33718;0,41337;41,33718
40,00374;15,77110;1,57711;66,00800;0;22476;0;0;16,08205;40,00374;0,40004;40,00374
38,66999;15,18991;1,51899;66,80801;0;22476;0;0;15,48940;38,66999;0,38670;38,66999
37,33687;14,67415;1,46741;67,60800;0;22476;0;0;14,96346;37,33687;0,37337;37,33687
36,00312;14,07947;1,40795;68,40801;0;22476;0;0;14,35707;36,00312;0,36003;36,00312
34,67062;13,52461;1,35246;69,20800;0;22476;0;0;13,79126;34,67062;0,34671;34,67062
33,33656;12,93291;1,29329;70,00800;0;22476;0;0;13,18790;33,33656;0,33337;33,33656
32,00328;12,37109;1,23711;70,80801;0;22476;0;0;12,61500;32,00328;0,32003;32,00328
30,67047;11,78059;1,17806;71,60800;0;22476;0;0;12,01286;30,67047;0,30670;30,67047
29,33625;11,20943;1,12094;72,40801;0;22476;0;0;11,43044;29,33625;0,29336;29,33625
28,00359;10,58770;1,05877;73,20800;0;22476;0;0;10,79645;28,00359;0,28004;28,00359
26,66953;9,96531;0,99653;74,00800;0;22476;0;0;10,16179;26,66953;0,26670;26,66953
25,33625;9,34876;0,93488;74,80801;0;22476;0;0;9,53308;25,33625;0,25336;25,33625
24,00328;8,69254;0,86925;75,60800;0;22476;0;0;8,86392;24,00328;0,24003;24,00328
22,67046;8,01620;0,80162;76,40801;0;22476;0;0;8,17425;22,67047;0,22670;22,67046
21,33672;7,35892;0,73589;77,20800;0;22476;0;0;7,50402;21,33672;0,21337;21,33672
20,00281;6,63633;0,66363;78,00800;0;22476;0;0;6,76717;20,00281;0,20003;20,00281
18,67047;5,89153;0,58915;78,80801;0;22476;0;0;6,00769;18,67047;0,18670;18,67047
17,33718;5,14063;0,51406;79,60800;0;22476;0;0;5,24198;17,33718;0,17337;17,33718
16,00359;4,34377;0,43438;80,40801;0;22476;0;0;4,42942;16,00359;0,16004;16,00359
14,66984;3,51844;0,35184;81,20800;0;22476;0;0;3,58781;14,66984;0,14670;14,66984
13,33687;2,73061;0,27306;82,00800;0;22476;0;0;2,78445;13,33687;0,13337;13,33687
12,00344;1,87991;0,18799;82,80801;0;22476;0;0;1,91697;12,00344;0,12003;12,00344
10,67000;1,06309;0,10631;83,60800;0;22476;0;0;1,08405;10,67000;0,10670;10,67000
9,33656;0,35372;0,03537;84,40801;0;22476;0;0;0,36069;9,33656;0,09337;9,33656
8,00312;-0,06763;-0,00676;85,20801;0;22476;0;0;-0,06896;8,00312;0,08003;8,00312
6,66984;-0,15514;-0,01551;86,00800;0;22476;0;0;-0,15820;6,66984;0,06670;6,66984
5,33641;-0,16070;-0,01607;86,80801;0;22476;0;0;-0,16387;5,33641;0,05336;5,33641
4,00328;-0,15776;-0,01578;87,60800;0;22476;0;0;-0,16087;4,00328;0,04003;4,00328
2,67031;-0,15060;-0,01506;88,40801;0;22476;0;0;-0,15357;2,67031;0,02670;2,67031
1,33656;-0,13360;-0,01336;89,20801;0;22476;0;0;-0,13624;1,33656;0,01337;1,33656
0,00391;-0,13963;-0,01396;90,00800;0;22476;0;0;-0,14238;0,00391;0,00004;0,00391
-0,00625;-0,14019;-0,01402;90,01401;1;22412;0;0;-0,14296;-0,00625;-0,00006;-0,00625