Folder: TP-identification/Test Data/Aorta/Tensile Data

Note: README.md
# Identification - Master BMED

This repository contains the materials for the Identification course in the Master BMED program at Mines St Etienne.

## Installation

To set up the conda environment for this project, follow these steps:

1. **Install Miniconda/Anaconda**:
    If you don't have Miniconda or Anaconda installed, download and install it from [here](https://docs.conda.io/en/latest/miniconda.html).

2. **Clone the repository**:
    ```bash
    git clone https://gitlab.emse.fr/pierrat/tp-identification.git
    cd tp-identification
    ```

3. **Create the conda environment**:
    ```bash
    conda env create -f environment.yml
    ```

4. **Activate the environment**:
    ```bash
    conda activate tp-identification
    ```

5. **Install additional dependencies (if any)**:
    ```bash
    conda install <package-name>
    ```

## Usage

After setting up and activating the conda environment, you can open the `Identification.ipynb` notebook. For example, you can use Visual Studio Code or Jupyter Lab to open the notebook.

## Contributing

If you wish to contribute to this project, please fork the repository and create a pull request with your changes.

File: data.csv
Déplacement;Charge;Contrainte de traction;Temps;Nbre de cycles;ID de segment;Données marquées;Nombre de marques;Ténacité;Déplacement de traction;Déformation de traction;Position corrigée
(mm);(N);(MPa);(sec);;;;;(gf/tex);(mm);(mm/mm);(mm)
0,00000;0,14325;0,01432;0,00000;0;5;0;0;0,14607;0,00000;0,00000;0,00000
0,00000;0,14357;0,01436;0,00400;0;22412;0;0;0,14641;0,00000;0,00000;0,00000
1,97750;0,37089;0,03709;0,20400;0;22412;0;0;0,37821;1,97750;0,01977;1,97750
3,99844;0,63472;0,06347;0,40400;0;22412;0;0;0,64723;3,99844;0,03998;3,99844
5,99937;0,87064;0,08706;0,60400;0;22412;0;0;0,88780;5,99937;0,05999;5,99937
7,99953;1,25615;0,12562;0,80400;0;22412;0;0;1,28092;7,99953;0,08000;7,99953
10,00031;1,52895;0,15290;1,00400;0;22412;0;0;1,55910;10,00031;0,10000;10,00031
11,99953;1,86239;0,18624;1,20400;0;22412;0;0;1,89911;11,99953;0,12000;11,99953
13,99953;2,46648;0,24665;1,40400;0;22412;0;0;2,51511;13,99953;0,14000;13,99953
15,99984;3,67891;0,36789;1,60400;0;22412;0;0;3,75144;15,99984;0,16000;15,99984
18,00062;5,65305;0,56530;1,80400;0;22412;0;0;5,76450;18,00062;0,18001;18,00062
19,99984;7,77793;0,77779;2,00400;0;22412;0;0;7,93128;19,99984;0,20000;19,99984
21,99968;9,70616;0,97062;2,20400;0;22412;0;0;9,89753;21,99968;0,22000;21,99968
23,99953;11,24778;1,12478;2,40400;0;22412;0;0;11,46955;23,99953;0,24000;23,99953
24,53953;11,50582;1,15058;2,45800;0;22476;0;0;11,73267;24,53953;0,24540;24,53953
22,56781;6,31034;0,63103;2,65800;0;22476;0;0;6,43475;22,56781;0,22568;22,56781
20,52297;3,46008;0,34601;2,85800;0;22476;0;0;3,52830;20,52296;0,20523;20,52297
18,52047;2,12696;0,21270;3,05800;0;22476;0;0;2,16889;18,52047;0,18520;18,52047
16,52046;1,43397;0,14340;3,25800;0;22476;0;0;1,46225;16,52046;0,16520;16,52046
14,52000;1,09015;0,10902;3,45800;0;22476;0;0;1,11165;14,52000;0,14520;14,52000
12,51953;0,87808;0,08781;3,65800;0;22476;0;0;0,89539;12,51953;0,12520;12,51953
10,51984;0,69985;0,06999;3,85800;0;22476;0;0;0,71365;10,51984;0,10520;10,51984
8,52031;0,50747;0,05075;4,05800;0;22476;0;0;0,51748;8,52031;0,08520;8,52031
6,52078;0,31169;0,03117;4,25800;0;22476;0;0;0,31783;6,52078;0,06521;6,52078
4,51922;0,15169;0,01517;4,45800;0;22476;0;0;0,15468;4,51922;0,04519;4,51922
2,51953;-0,00136;-0,00014;4,65800;0;22476;0;0;-0,00139;2,51953;0,02520;2,51953
0,51984;-0,11351;-0,01135;4,85800;0;22476;0;0;-0,11575;0,51984;0,00520;0,51984
-0,02125;-0,10604;-0,01060;4,91200;1;22412;0;0;-0,10813;-0,02125;-0,00021;-0,02125
1,95172;0,04063;0,00406;5,11200;1;22412;0;0;0,04143;1,95172;0,01952;1,95172
3,99656;0,22348;0,02235;5,31200;1;22412;0;0;0,22788;3,99656;0,03997;3,99656
5,99922;0,49221;0,04922;5,51200;1;22412;0;0;0,50191;5,99922;0,05999;5,99922
7,99984;0,78578;0,07858;5,71200;1;22412;0;0;0,80127;7,99984;0,08000;7,99984
10,00031;0,89803;0,08980;5,91200;1;22412;0;0;0,91574;10,00031;0,10000;10,00031
11,99953;1,13771;0,11377;6,11200;1;22412;0;0;1,16014;11,99953;0,12000;11,99953
13,99937;1,39722;0,13972;6,31200;1;22412;0;0;1,42477;13,99937;0,13999;13,99937
15,99984;1,79204;0,17920;6,51200;1;22412;0;0;1,82737;15,99984;0,16000;15,99984
18,00046;2,35359;0,23536;6,71200;1;22412;0;0;2,39999;18,00047;0,18000;18,00046
20,00000;3,52511;0,35251;6,91200;1;22412;0;0;3,59461;20,00000;0,20000;20,00000
21,99953;5,68583;0,56858;7,11200;1;22412;0;0;5,79793;21,99953;0,22000;21,99953
23,99937;8,95046;0,89505;7,31200;1;22412;0;0;9,12693;23,99937;0,23999;23,99937
24,53953;10,03489;1,00349;7,36600;1;22476;0;0;10,23274;24,53953;0,24540;24,53953
22,56750;5,74887;0,57489;7,56600;1;22476;0;0;5,86222;22,56750;0,22567;22,56750
20,52312;3,18653;0,31865;7,76600;1;22476;0;0;3,24935;20,52312;0,20523;20,52312
18,52047;2,01546;0,20155;7,96600;1;22476;0;0;2,05520;18,52047;0,18520;18,52047
16,52062;1,36757;0,13676;8,16600;1;22476;0;0;1,39453;16,52062;0,16521;16,52062
14,52000;1,05958;0,10596;8,36600;1;22476;0;0;1,08047;14,52000;0,14520;14,52000
12,51953;0,83186;0,08319;8,56600;1;22476;0;0;0,84826;12,51953;0,12520;12,51953
10,52000;0,64741;0,06474;8,76600;1;22476;0;0;0,66017;10,52000;0,10520;10,52000
8,52062;0,48516;0,04852;8,96600;1;22476;0;0;0,49473;8,52062;0,08521;8,52062
6,52078;0,30950;0,03095;9,16600;1;22476;0;0;0,31560;6,52078;0,06521;6,52078
4,51922;0,12654;0,01265;9,36600;1;22476;0;0;0,12904;4,51922;0,04519;4,51922
2,51953;0,01774;0,00177;9,56600;1;22476;0;0;0,01809;2,51953;0,02520;2,51953
0,51984;-0,12347;-0,01235;9,76600;1;22476;0;0;-0,12591;0,51984;0,00520;0,51984
-0,02109;-0,13626;-0,01363;9,82000;2;22412;0;0;-0,13895;-0,02109;-0,00021;-0,02109
1,95187;-0,02672;-0,00267;10,02000;2;22412;0;0;-0,02724;1,95187;0,01952;1,95187
3,99656;0,16352;0,01635;10,22000;2;22412;0;0;0,16674;3,99656;0,03997;3,99656
5,99937;0,40447;0,04045;10,42000;2;22412;0;0;0,41245;5,99937;0,05999;5,99937
8,00000;0,69768;0,06977;10,62000;2;22412;0;0;0,71143;8,00000;0,08000;8,00000
10,00031;0,96214;0,09621;10,82000;2;22412;0;0;0,98111;10,00031;0,10000;10,00031
11,99969;1,05500;0,10550;11,02000;2;22412;0;0;1,07580;11,99969;0,12000;11,99969
13,99953;1,37191;0,13719;11,22000;2;22412;0;0;1,39896;13,99953;0,14000;13,99953
15,99984;1,71251;0,17125;11,42000;2;22412;0;0;1,74627;15,99984;0,16000;15,99984
18,00046;2,15654;0,21565;11,62000;2;22412;0;0;2,19906;18,00047;0,18000;18,00046
19,99984;3,24008;0,32401;11,82000;2;22412;0;0;3,30396;19,99984;0,20000;19,99984
21,99953;5,13734;0,51373;12,02000;2;22412;0;0;5,23863;21,99953;0,22000;21,99953
23,99937;8,34585;0,83458;12,22000;2;22412;0;0;8,51040;23,99937;0,23999;23,99937
24,53953;9,42604;0,94260;12,27400;2;22476;0;0;9,61189;24,53953;0,24540;24,53953
22,56750;5,46183;0,54618;12,47400;2;22476;0;0;5,56952;22,56750;0,22567;22,56750
20,52312;3,07933;0,30793;12,67400;2;22476;0;0;3,14004;20,52312;0,20523;20,52312
18,52031;1,88481;0,18848;12,87400;2;22476;0;0;1,92197;18,52031;0,18520;18,52031
16,52046;1,38108;0,13811;13,07400;2;22476;0;0;1,40831;16,52046;0,16520;16,52046
14,52015;1,00436;0,10044;13,27400;2;22476;0;0;1,02416;14,52015;0,14520;14,52015
12,51953;0,82450;0,08245;13,47400;2;22476;0;0;0,84076;12,51953;0,12520;12,51953
10,52000;0,62778;0,06278;13,67400;2;22476;0;0;0,64016;10,52000;0,10520;10,52000
8,52031;0,45577;0,04558;13,87400;2;22476;0;0;0,46476;8,52031;0,08520;8,52031
6,52078;0,29820;0,02982;14,07400;2;22476;0;0;0,30408;6,52078;0,06521;6,52078
4,51922;0,11108;0,01111;14,27400;2;22476;0;0;0,11327;4,51922;0,04519;4,51922
2,51953;-0,02980;-0,00298;14,47400;2;22476;0;0;-0,03039;2,51953;0,02520;2,51953
0,52000;-0,08925;-0,00892;14,67400;2;22476;0;0;-0,09101;0,52000;0,00520;0,52000
-0,02109;-0,13081;-0,01308;14,72800;3;22412;0;0;-0,13339;-0,02109;-0,00021;-0,02109