Folder: TP-identification/Test Data/Rubber band/Tensile Data

Note: README.md
# Identification - Master BMED

This repository contains the materials for the Identification course in the Master BMED program at Mines St Etienne.

## Installation

To set up the conda environment for this project, follow these steps:

1. **Install Miniconda/Anaconda**:
    If you don't have Miniconda or Anaconda installed, download and install it from [here](https://docs.conda.io/en/latest/miniconda.html).

2. **Clone the repository**:
    ```bash
    git clone https://gitlab.emse.fr/pierrat/tp-identification.git
    cd tp-identification
    ```

3. **Create the conda environment**:
    ```bash
    conda env create -f environment.yml
    ```

4. **Activate the environment**:
    ```bash
    conda activate tp-identification
    ```

5. **Install additional dependencies (if any)**:
    ```bash
    conda install <package-name>
    ```

## Usage

After setting up and activating the conda environment, you can open the `Identification.ipynb` notebook. For example, you can use Visual Studio Code or Jupyter Lab to open the notebook.

## Contributing

If you wish to contribute to this project, please fork the repository and create a pull request with your changes.

File: data.csv
Déplacement;Charge;Contrainte de traction;Temps;Nbre de cycles;ID de segment;Données marquées;Nombre de marques;Ténacité;Déplacement de traction;Déformation de traction;Position corrigée
(mm);(N);(MPa);(sec);;;;;(gf/tex);(mm);(mm/mm);(mm)
0,00000;0,79304;0,07930;0,00000;0;5;0;0;0,80867;0,00000;0,00000;0,00000
0,53328;2,31289;0,23129;0,80400;0;22412;0;0;2,35849;0,53328;0,00533;0,53328
1,19875;3,67344;0,36734;1,80400;0;22412;0;0;3,74587;1,19875;0,01199;1,19875
1,86734;4,82393;0,48239;2,80400;0;22412;0;0;4,91904;1,86734;0,01867;1,86734
2,53203;5,83749;0,58375;3,80400;0;22412;0;0;5,95259;2,53203;0,02532;2,53203
3,20016;6,75572;0,67557;4,80400;0;22412;0;0;6,88891;3,20016;0,03200;3,20016
3,86516;7,59397;0,75940;5,80400;0;22412;0;0;7,74369;3,86516;0,03865;3,86516
4,53359;8,38440;0,83844;6,80400;0;22412;0;0;8,54970;4,53359;0,04534;4,53359
5,19906;9,11766;0,91177;7,80400;0;22412;0;0;9,29742;5,19906;0,05199;5,19906
5,86641;9,82086;0,98209;8,80400;0;22412;0;0;10,01449;5,86641;0,05866;5,86641
6,53281;10,48237;1,04824;9,80400;0;22412;0;0;10,68904;6,53281;0,06533;6,53281
7,19953;11,10393;1,11039;10,80400;0;22412;0;0;11,32286;7,19953;0,07200;7,19953
7,86656;11,71021;1,17102;11,80400;0;22412;0;0;11,94109;7,86656;0,07867;7,86656
8,53265;12,28033;1,22803;12,80400;0;22412;0;0;12,52245;8,53265;0,08533;8,53265
9,20000;12,83420;1,28342;13,80400;0;22412;0;0;13,08724;9,20000;0,09200;9,20000
9,86609;13,36584;1,33658;14,80400;0;22412;0;0;13,62936;9,86609;0,09866;9,86609
10,53328;13,88140;1,38814;15,80400;0;22412;0;0;14,15509;10,53328;0,10533;10,53328
11,19875;14,37509;1,43751;16,80400;0;22412;0;0;14,65852;11,19875;0,11199;11,19875
11,86594;14,86132;1,48613;17,80400;0;22412;0;0;15,15433;11,86594;0,11866;11,86594
12,53109;15,31531;1,53153;18,80400;0;22412;0;0;15,61727;12,53109;0,12531;12,53109
12,46797;14,37398;1,43740;19,70600;0;22476;0;0;14,65738;12,46797;0,12468;12,46797
11,79953;12,95493;1,29549;20,70600;0;22476;0;0;13,21036;11,79953;0,11800;11,79953
11,13312;11,84874;1,18487;21,70600;0;22476;0;0;12,08235;11,13312;0,11133;11,13312
10,46562;10,86437;1,08644;22,70600;0;22476;0;0;11,07858;10,46562;0,10466;10,46562
9,80062;9,96416;0,99642;23,70600;0;22476;0;0;10,16061;9,80062;0,09801;9,80062
9,13234;9,10105;0,91010;24,70600;0;22476;0;0;9,28049;9,13234;0,09132;9,13234
8,46687;8,27426;0,82743;25,70600;0;22476;0;0;8,43740;8,46687;0,08467;8,46687
7,79891;7,46063;0,74606;26,70600;0;22476;0;0;7,60773;7,79891;0,07799;7,79891
7,13422;6,67211;0,66721;27,70600;0;22476;0;0;6,80365;7,13422;0,07134;7,13422
6,46578;5,86422;0,58642;28,70600;0;22476;0;0;5,97984;6,46578;0,06466;6,46578
5,80031;5,07226;0,50723;29,70600;0;22476;0;0;5,17227;5,80031;0,05800;5,80031
5,13281;4,25428;0,42543;30,70600;0;22476;0;0;4,33816;5,13281;0,05133;5,13281
4,46656;3,43539;0,34354;31,70600;0;22476;0;0;3,50312;4,46656;0,04467;4,46656
3,80047;2,60651;0,26065;32,70600;0;22476;0;0;2,65790;3,80047;0,03800;3,80047
3,13297;1,75812;0,17581;33,70600;0;22476;0;0;1,79279;3,13297;0,03133;3,13297
2,46687;0,93751;0,09375;34,70600;0;22476;0;0;0,95599;2,46687;0,02467;2,46687
1,79891;0,26796;0,02680;35,70600;0;22476;0;0;0,27324;1,79891;0,01799;1,79891
1,13328;-0,09989;-0,00999;36,70600;0;22476;0;0;-0,10185;1,13328;0,01133;1,13328
0,46562;-0,21780;-0,02178;37,70600;0;22476;0;0;-0,22210;0,46562;0,00466;0,46562
0,03781;-0,19593;-0,01959;38,51000;1;22412;0;0;-0,19980;0,03781;0,00038;0,03781
0,73187;0,05630;0,00563;39,51000;1;22412;0;0;0,05741;0,73187;0,00732;0,73187
1,39734;0,90554;0,09055;40,51000;1;22412;0;0;0,92340;1,39734;0,01397;1,39734
2,06578;2,24545;0,22454;41,51000;1;22412;0;0;2,28972;2,06578;0,02066;2,06578
2,73047;3,56686;0,35669;42,51000;1;22412;0;0;3,63718;2,73047;0,02730;2,73047
3,39891;4,72776;0,47278;43,51000;1;22412;0;0;4,82097;3,39891;0,03399;3,39891
4,06437;5,76480;0,57648;44,51000;1;22412;0;0;5,87846;4,06437;0,04064;4,06437
4,73172;6,71893;0,67189;45,51000;1;22412;0;0;6,85140;4,73172;0,04732;4,73172
5,39750;7,59426;0,75943;46,51000;1;22412;0;0;7,74399;5,39750;0,05397;5,39750
6,06469;8,42532;0,84253;47,51000;1;22412;0;0;8,59143;6,06469;0,06065;6,06469
6,73094;9,20556;0,92056;48,51000;1;22412;0;0;9,38706;6,73094;0,06731;6,73094
7,39812;9,94943;0,99494;49,51000;1;22412;0;0;10,14560;7,39812;0,07398;7,39812
8,06484;10,65665;1,06567;50,51000;1;22412;0;0;10,86676;8,06484;0,08065;8,06484
8,73078;11,33448;1,13345;51,51000;1;22412;0;0;11,55795;8,73078;0,08731;8,73078
9,39781;11,99411;1,19941;52,51000;1;22412;0;0;12,23059;9,39781;0,09398;9,39781
10,06406;12,63059;1,26306;53,51000;1;22412;0;0;12,87962;10,06406;0,10064;10,06406
10,73187;13,25720;1,32572;54,51000;1;22412;0;0;13,51858;10,73187;0,10732;10,73187
11,39734;13,86055;1,38605;55,51000;1;22412;0;0;14,13383;11,39734;0,11397;11,39734
12,06531;14,46195;1,44619;56,51000;1;22412;0;0;14,74708;12,06531;0,12065;12,06531
12,73094;15,04856;1,50486;57,51000;1;22412;0;0;15,34526;12,73094;0,12731;12,73094
12,33469;13,68344;1,36834;58,31400;1;22476;0;0;13,95323;12,33469;0,12335;12,33469
11,66672;12,36871;1,23687;59,31400;1;22476;0;0;12,61257;11,66672;0,11667;11,66672
11,00140;11,30593;1,13059;60,31400;1;22476;0;0;11,52884;11,00140;0,11001;11,00140
10,33390;10,35438;1,03544;61,31400;1;22476;0;0;10,55853;10,33391;0,10334;10,33390
9,66656;9,46136;0,94614;62,31400;1;22476;0;0;9,64790;9,66656;0,09667;9,66656
9,00062;8,61398;0,86140;63,31400;1;22476;0;0;8,78382;9,00062;0,09001;9,00062
8,33390;7,79741;0,77974;64,31400;1;22476;0;0;7,95114;8,33390;0,08334;8,33390
7,66781;6,99039;0,69904;65,31400;1;22476;0;0;7,12821;7,66781;0,07668;7,66781
6,99953;6,19122;0,61912;66,31400;1;22476;0;0;6,31329;6,99953;0,07000;6,99953
6,33469;5,40263;0,54026;67,31400;1;22476;0;0;5,50915;6,33469;0,06335;6,33469
5,66641;4,59090;0,45909;68,31400;1;22476;0;0;4,68142;5,66641;0,05666;5,66641
5,00000;3,78788;0,37879;69,31400;1;22476;0;0;3,86256;5,00000;0,05000;5,00000
4,33266;2,96659;0,29666;70,31400;1;22476;0;0;3,02508;4,33266;0,04333;4,33266
3,66766;2,14086;0,21409;71,31400;1;22476;0;0;2,18307;3,66766;0,03668;3,66766
3,00016;1,30248;0,13025;72,31400;1;22476;0;0;1,32816;3,00016;0,03000;3,00016
2,33359;0,54409;0,05441;73,31400;1;22476;0;0;0,55482;2,33359;0,02334;2,33359
1,66703;0,04355;0,00435;74,31400;1;22476;0;0;0,04441;1,66703;0,01667;1,66703
1,00047;-0,17538;-0,01754;75,31400;1;22476;0;0;-0,17884;1,00047;0,01000;1,00047
0,33297;-0,20848;-0,02085;76,31400;1;22476;0;0;-0,21259;0,33297;0,00333;0,33297
0,19516;-0,17038;-0,01704;77,11800;2;22412;0;0;-0,17374;0,19516;0,00195;0,19516
0,86437;0,04675;0,00468;78,11800;2;22412;0;0;0,04767;0,86437;0,00864;0,86437
1,53156;0,83083;0,08308;79,11800;2;22412;0;0;0,84721;1,53156;0,01532;1,53156
2,19812;2,11896;0,21190;80,11800;2;22412;0;0;2,16074;2,19812;0,02198;2,19812
2,86547;3,43913;0,34391;81,11800;2;22412;0;0;3,50693;2,86547;0,02865;2,86547
3,53172;4,59262;0,45926;82,11800;2;22412;0;0;4,68317;3,53172;0,03532;3,53172
4,19891;5,62662;0,56266;83,11800;2;22412;0;0;5,73756;4,19891;0,04199;4,19891
4,86391;6,56971;0,65697;84,11800;2;22412;0;0;6,69924;4,86391;0,04864;4,86391
5,53234;7,45137;0,74514;85,11800;2;22412;0;0;7,59828;5,53234;0,05532;5,53234
6,19719;8,27280;0,82728;86,11800;2;22412;0;0;8,43591;6,19719;0,06197;6,19719
6,86516;9,05684;0,90568;87,11800;2;22412;0;0;9,23541;6,86516;0,06865;6,86516
7,53047;9,79847;0,97985;88,11800;2;22412;0;0;9,99166;7,53047;0,07530;7,53047
8,19969;10,51863;1,05186;89,11800;2;22412;0;0;10,72602;8,19969;0,08200;8,19969
8,86453;11,19795;1,11979;90,11800;2;22412;0;0;11,41873;8,86453;0,08865;8,86453
9,53187;11,85947;1,18595;91,11800;2;22412;0;0;12,09330;9,53187;0,09532;9,53187
10,19765;12,49825;1,24982;92,11800;2;22412;0;0;12,74466;10,19765;0,10198;10,19765
10,86422;13,13102;1,31310;93,11800;2;22412;0;0;13,38991;10,86422;0,10864;10,86422
11,53094;13,75827;1,37583;94,11800;2;22412;0;0;14,02954;11,53094;0,11531;11,53094
12,19828;14,37608;1,43761;95,11800;2;22412;0;0;14,65952;12,19828;0,12198;12,19828
12,80125;14,93253;1,49325;96,02001;2;22412;0;0;15,22694;12,80125;0,12801;12,80125
12,19890;13,20760;1,32076;96,92201;2;22476;0;0;13,46800;12,19890;0,12199;12,19890
11,53469;11,98704;1,19870;97,92201;2;22476;0;0;12,22338;11,53469;0,11535;11,53469
10,86578;10,94145;1,09414;98,92201;2;22476;0;0;11,15717;10,86578;0,10866;10,86578
10,20031;10,01288;1,00129;99,92201;2;22476;0;0;10,21029;10,20031;0,10200;10,20031
9,53281;9,12922;0,91292;100,92201;2;22476;0;0;9,30921;9,53281;0,09533;9,53281
8,86797;8,29834;0,82983;101,92201;2;22476;0;0;8,46195;8,86797;0,08868;8,86797
8,20062;7,48184;0,74818;102,92201;2;22476;0;0;7,62935;8,20062;0,08201;8,20062
7,53359;6,68079;0,66808;103,92201;2;22476;0;0;6,81251;7,53359;0,07534;7,53359
6,86547;5,87336;0,58734;104,92201;2;22476;0;0;5,98916;6,86547;0,06865;6,86547
6,19953;5,08079;0,50808;105,92201;2;22476;0;0;5,18096;6,19953;0,06200;6,19953
5,53406;4,27970;0,42797;106,92201;2;22476;0;0;4,36408;5,53406;0,05534;5,53406
4,86703;3,46650;0,34665;107,92201;2;22476;0;0;3,53484;4,86703;0,04867;4,86703
4,20062;2,64828;0,26483;108,92201;2;22476;0;0;2,70050;4,20062;0,04201;4,20062
3,53328;1,81314;0,18131;109,92201;2;22476;0;0;1,84888;3,53328;0,03533;3,53328
2,86781;1,00297;0,10030;110,92201;2;22476;0;0;1,02274;2,86781;0,02868;2,86781
2,19937;0,31781;0,03178;111,92201;2;22476;0;0;0,32408;2,19937;0,02199;2,19937
1,53437;-0,06726;-0,00673;112,92201;2;22476;0;0;-0,06859;1,53437;0,01534;1,53437
0,86609;-0,20175;-0,02017;113,92201;2;22476;0;0;-0,20572;0,86609;0,00866;0,86609
0,20156;-0,20066;-0,02007;114,92201;2;22476;0;0;-0,20461;0,20156;0,00202;0,20156
-0,00234;-0,19658;-0,01966;115,22601;3;22412;0;0;-0,20045;-0,00234;-0,00002;-0,00234